Folder: TGA/slave_origin_full/pi/sandbox/tf_fitting_rfiles/complete/tmp_tga_debug_Mar_26_2019

File: TGA_2nd.prod.dat
# matrix : d no_of_rows: 100000 no_of_cols: 5 REAL
# matrix columns 1 thru 5
 2078 2048 2079 2046 63
 2078 2047 2078 2047 63
 2079 2047 2080 2047 63
 2079 2047 2081 2047 64
 2077 2047 2078 2046 63
 2081 2047 2081 2047 63
 2077 2047 2079 2046 63
 2077 2048 2078 2046 63
 2077 2048 2078 2046 63
 2078 2047 2080 2046 63
 2081 2048 2081 2047 63
 2080 2048 2082 2047 64
 2076 2047 2078 2046 64
 2081 2047 2082 2046 63
 2080 2106 2078 2107 64
 2081 2049 2081 2048 63
 2080 2041 2081 2041 64
 2080 2044 2081 2044 63
 2079 2047 2082 2046 63
 2079 2047 2080 2046 63
 2078 2046 2080 2046 63
 2078 2047 2081 2046 64
 2081 2043 2081 2041 63
 2079 2070 2080 2068 64
 2080 2058 2081 2057 63
 2080 2050 2083 2050 63
 2079 2049 2079 2047 64
 2081 2048 2082 2047 63
 2077 2048 2078 2047 64
 2080 2047 2081 2046 63
 2078 1965 2082 1965 64
 2078 2006 2080 2005 63
 2081 2039 2082 2039 63
 2079 2046 2080 2044 64
 2080 2049 2082 2049 63
 2079 2048 2082 2046 64
 2079 2048 2080 2048 63
 2081 2046 2083 2046 64
 2651 556 1499 553 63
 2083 2076 2081 2075 63
 2079 2048 2081 2048 63
 2080 2044 2081 2042 63
 2081 2048 2083 2045 63
 2080 2047 2080 2045 64
 2079 2048 2080 2048 63
 2079 2047 2082 2046 64
 2082 2048 2082 2047 63
 2079 2052 2082 2051 64
 2080 2061 2080 2060 63
 2081 2052 2082 2051 63
 2079 2050 2081 2049 64
 2082 2048 2082 2047 63
 2081 2048 2081 2046 64
 2079 2048 2079 2046 63
 2082 2048 2083 2046 63
 2078 1996 2081 1996 64
 2080 2025 2082 2024 63
 2080 2042 2081 2041 63
 2079 2046 2082 2044 63
 2080 2048 2083 2048 63
 2079 2046 2081 2046 64
 2081 2048 2081 2047 63
 2079 2047 2082 2046 64
 2082 2126 2081 2125 63
 2082 2062 2081 2062 64
 2079 2048 2081 2048 63
 2080 2045 2083 2044 63
 2080 2048 2081 2046 64
 2081 2046 2083 2045 63
 2080 2048 2081 2048 64
 2081 2047 2081 2046 63
 2080 1994 2084 1993 63
 2079 2050 2080 2049 63
 2081 2055 2082 2054 63
 2080 2049 2080 2048 64
 2081 2050 2081 2048 63
 2081 2046 2082 2046 63
 2079 2046 2081 2047 63
 2079 2047 2081 2046 63
 2079 2032 2082 2031 63
 2081 2019 2082 2017 63
 2079 2035 2082 2036 63
 2080 2043 2081 2043 63
 2081 2047 2083 2047 63
 2079 2047 2081 2046 64
 2081 2046 2083 2046 63
 2078 2047 2081 2046 64
 2081 2144 2079 2144 63
 2081 2088 2082 2086 63
 2079 2054 2080 2054 64
 2081 2049 2082 2047 63
 2079 2044 2081 2042 64
 1889 2585 2274 2584 63
 1888 2563 2273 2564 64
 1888 2558 2273 2557 64
 1889 2554 2274 2554 63
 1886 2556 2274 2556 64
 1889 2554 2274 2555 63
 1887 2555 2273 2554 64
 1888 2556 2273 2555 64
 1889 2556 2275 2556 63
 1887 2556 2273 2556 64
 1888 2556 2275 2556 63
 1886 2556 2273 2556 63
 1888 2556 2274 2557 63
 1888 2556 2275 2555 63
 1886 2557 2273 2555 63
 1890 2556 2274 2556 63
 2271 1523 1887 1523 64
 2272 1557 1888 1556 63
 2272 1548 1888 1547 64
 2270 1544 1886 1543 63
 2273 1541 1889 1540 63
 2270 1540 1887 1539 64
 2272 1540 1888 1538 63
 2270 1540 1888 1537 64
 2271 1541 1887 1538 64
 2272 1540 1889 1539 63
 2270 1540 1887 1537 64
 2272 1540 1889 1537 63
 2268 1539 1885 1538 64
 2272 1540 1887 1539 63
 2272 1539 1888 1538 63
 2271 1540 1886 1537 63
 1888 2499 2276 2499 63
 1888 2537 2273 2537 63
 1888 2551 2273 2551 63
 1887 2555 2274 2555 64
 1887 2556 2271 2554 64
 1887 2555 2273 2555 63
 1887 2554 2273 2555 63
 1889 2554 2274 2555 63
 1888 2555 2273 2555 63
 1888 2556 2274 2556 63
 1889 2556 2275 2555 64
 1886 2555 2273 2555 64
 1890 2556 2274 2554 63
 1887 2555 2274 2555 64
 1888 2556 2273 2555 63
 1888 2555 2274 2554 64
 2272 1653 1885 1651 64
 2271 1522 1890 1520 63
 2270 1540 1888 1539 64
 2273 1539 1889 1538 63
 2271 1540 1889 1538 64
 2269 1540 1886 1539 64
 2272 1539 1889 1537 63
 2270 1540 1888 1539 64
 2273 1539 1889 1538 64
 2271 1539 1888 1538 64
 2271 1540 1888 1539 63
 2273 1540 1889 1538 63
 2270 1539 1887 1539 64
 2272 1541 1887 1538 63
 2270 1540 1888 1538 64
 2273 1539 1887 1539 63
 2271 1539 1888 1537 63
 2079 2054 2080 2053 64
 2081 2047 2083 2046 64
 2079 2047 2081 2046 64
 2081 2048 2082 2046 63
 2080 2047 2081 2046 64
 2079 2047 2080 2047 63
 2081 2047 2083 2047 63
 2079 2047 2081 2046 64
 2081 2047 2081 2046 63
 2080 2048 2081 2046 64
 2081 2048 2081 2047 63
 2080 2048 2083 2047 64
 2079 2048 2080 2046 64
 2080 2048 2081 2046 64
 2079 2047 2081 2047 64
 2081 2047 2082 2047 63
 2078 2048 2081 2046 64
 2078 2047 2078 2047 64
 2079 2047 2081 2047 63
 2079 2049 2080 2047 64
 2080 2048 2081 2046 63
 2076 2047 2078 2047 64
 2080 2048 2081 2046 64
 2081 2047 2083 2046 63
 2079 2047 2080 2047 64
 2082 2047 2082 2048 63
 2079 2047 2081 2048 64
 2081 2048 2081 2045 64
 2080 2047 2082 2046 64
 2079 2048 2081 2046 64
 2080 2048 2081 2046 63
 2079 2048 2081 2046 64
 2080 2047 2082 2046 63
 2079 2047 2082 2045 64
 2080 2048 2080 2047 63
 2080 2047 2083 2047 63
 2079 2048 2080 2046 64
 2081 2047 2082 2048 63
 2079 2046 2080 2047 64
 2081 2048 2081 2046 63
 2080 2046 2082 2046 63
 2079 2046 2080 2044 64
 2081 2047 2083 2047 63
 2080 2048 2080 2046 64
 2081 2047 2081 2047 64
 2080 2046 2082 2046 64
 2080 2048 2080 2047 64
 2081 2048 2082 2047 63
 2079 2047 2081 2047 64
 2080 2046 2081 2046 63
 2080 2047 2082 2046 64
 2080 2046 2081 2046 63
 2081 2047 2082 2047 63
 2080 2047 2080 2046 64
 2082 2048 2081 2046 63
 2078 2047 2079 2047 64
 2080 2047 2081 2046 63
 2080 2046 2082 2046 64
 2078 2048 2080 2046 64
 2081 2048 2083 2046 63
 2080 2047 2080 2047 64
 2080 2047 2082 2046 63
 2081 2048 2082 2046 64
 2078 2047 2080 2047 63
 2081 2047 2083 2046 63
 2079 2048 2079 2046 64
 2081 2047 2082 2046 63
 2081 2048 2081 2047 64
 2081 2048 2081 2048 63
 2081 2047 2083 2046 63
 2078 2047 2081 2046 63
 2082 2047 2082 2046 63
 2079 2048 2080 2046 64
 2081 2047 2081 2046 63
 2080 2048 2082 2046 64
 2079 2047 2080 2046 64
 2081 2047 2083 2046 63
 2078 2048 2081 2047 64
 2081 2047 2082 2047 63
 2081 2048 2083 2046 64
 2078 2047 2080 2047 64
 2081 2047 2083 2046 63
 2079 2048 2080 2045 64
 2081 2046 2082 2046 63
 2079 2047 2082 2046 64
 2080 2047 2081 2046 63
 2080 2048 2083 2047 63
 2079 2048 2081 2047 64
 2082 2047 2083 2047 63
 2079 2047 2081 2046 64
 2081 2047 2081 2046 63
 2080 2046 2082 2046 64
 2080 2047 2080 2046 63
 2081 2048 2083 2047 63
 2079 2048 2081 2046 64
 2080 2048 2083 2046 63
 2079 2047 2081 2046 64
 2079 2047 2079 2047 64
 2080 2048 2083 2047 64
 2078 2047 2080 2046 64
 2081 2048 2082 2046 63
 2081 2047 2083 2047 63
 2080 2048 2080 2046 64
 2082 2047 2082 2047 63
 2079 2048 2081 2047 64
 2079 2047 2080 2046 63
 2080 2047 2083 2047 63
 2079 2047 2081 2047 64
 2081 2048 2083 2046 63
 2080 2047 2081 2046 64
 2081 2048 2082 2046 63
 2081 2048 2082 2047 64
 2079 2047 2081 2047 64
 2082 2048 2084 2047 63
 2080 2048 2081 2046 64
 2081 2047 2082 2047 63
 2080 2047 2081 2047 64
 2080 2047 2081 2047 63
 2081 2048 2084 2047 63
 2079 2047 2081 2045 64
 2082 2048 2082 2047 63
 2080 2048 2081 2048 64
 2079 2048 2081 2046 63
 2081 2047 2082 2046 64
 2079 2047 2079 2047 64
 2082 2046 2082 2046 63
 2079 2048 2081 2048 64
 2081 2048 2081 2046 63
 2079 2048 2083 2047 64
 2080 2048 2081 2046 64
 2080 2047 2081 2047 63
 2081 2047 2080 2047 64
 2081 2048 2082 2046 63
 2079 2046 2081 2046 64
 2080 2048 2080 2047 63
 2081 2048 2083 2047 64
 2079 2047 2081 2047 63
 2082 2048 2082 2046 63
 2079 2048 2082 2047 64
 2080 2048 2081 2047 63
 2080 2046 2082 2046 64
 2079 2046 2080 2047 63
 2082 2048 2083 2047 63
 2081 2046 2082 2046 63