Folder: TGA/master_origin_full/pi/sandbox/tf_fitting_rfiles/complete/tmp_tga_debug_Mar_26_2019

File: TGA_first.prod.dat
# matrix : d no_of_rows: 100000 no_of_cols: 5 REAL
# matrix columns 1 thru 5
 2078 2047 2079 2047 64
 2078 2046 2078 2047 63
 2080 2048 2081 2046 63
 2081 2048 2081 2047 63
 2080 2047 2081 2047 63
 2078 2047 2079 2048 64
 2077 2048 2078 2048 63
 2078 2047 2080 2047 64
 2079 2048 2078 2046 63
 2080 2047 2081 2046 64
 2080 2048 2081 2046 63
 2079 2047 2080 2046 64
 2080 2046 2080 2047 64
 2075 2047 2075 2047 63
 2078 2049 2078 2046 63
 2078 2048 2081 2047 63
 2078 2049 2080 2047 64
 2080 2047 2081 2046 63
 2080 2047 2081 2046 63
 2079 2046 2080 2046 64
 2079 2047 2081 2045 63
 2075 1957 2080 1955 64
 2078 2008 2081 2008 64
 2081 2040 2082 2039 63
 2079 2046 2081 2044 63
 2081 2048 2082 2047 63
 2079 2047 2082 2046 64
 2080 2049 2080 2046 63
 2081 2047 2081 2046 63
 2598 853 1545 860 63
 2082 2073 2081 2073 63
 2077 2048 2078 2046 64
 2080 2044 2081 2041 63
 2081 2046 2082 2046 64
 2079 2046 2080 2045 63
 2081 2048 2082 2048 63
 2080 2046 2079 2046 64
 2076 2047 2078 2047 63
 2080 2060 2081 2058 63
 2079 2064 2081 2062 63
 2080 2053 2082 2051 63
 2078 2051 2081 2050 64
 2081 2048 2083 2047 63
 2078 2047 2081 2047 63
 2078 2046 2080 2045 63
 2078 2047 2080 2047 63
 2078 1989 2081 1989 64
 2082 2027 2082 2025 63
 2080 2041 2080 2042 64
 2079 2046 2080 2046 63
 2080 2049 2082 2047 64
 2079 2047 2081 2046 63
 2080 2048 2081 2048 63
 2076 2047 2077 2046 64
 2082 2127 2081 2126 63
 2080 2060 2081 2059 63
 2079 2047 2081 2048 63
 2080 2044 2083 2044 63
 2078 2049 2079 2047 64
 2082 2047 2082 2045 63
 2080 2049 2081 2048 63
 2078 2046 2080 2044 63
 2080 2000 2084 1999 63
 2080 2053 2081 2052 64
 2081 2057 2082 2056 63
 2081 2050 2082 2049 64
 2080 2049 2081 2048 63
 2082 2047 2082 2046 63
 2080 2049 2082 2047 64
 2081 2047 2081 2046 63
 2080 2020 2083 2019 64
 2079 2015 2081 2014 63
 2081 2037 2084 2036 63
 2080 2044 2081 2044 63
 2081 2048 2082 2046 63
 2080 2049 2082 2047 64
 2080 2048 2081 2048 63
 2082 2048 2082 2046 63
 2077 2151 2075 2150 63
 2083 2087 2082 2086 63
 2080 2054 2081 2053 63
 2081 2048 2082 2047 63
 2081 2046 2083 2045 63
 2079 2048 2081 2047 63
 2081 2047 2083 2046 63
 2079 2048 2081 2047 64
 2080 2046 2081 2046 63
 2079 2028 2083 2028 63
 2079 2050 2081 2049 64
 2081 2053 2084 2052 63
 2080 2049 2080 2049 64
 2081 2049 2082 2047 63
 2077 2045 2079 2045 64
 2079 2049 2082 2047 63
 2082 2046 2082 2045 63
 2077 2028 2080 2026 64
 2081 2030 2083 2028 63
 2080 2042 2082 2042 63
 2081 2045 2082 2044 63
 1889 2566 2275 2566 63
 1888 2546 2274 2546 63
 1889 2551 2275 2550 63
 1896 2564 2285 2563 64
 1888 2555 2272 2555 64
 1887 2555 2275 2556 64
 1888 2556 2273 2556 63
 1889 2556 2276 2557 63
 1885 2556 2273 2556 63
 1890 2556 2275 2557 63
 1888 2556 2274 2556 64
 1887 2557 2273 2556 63
 1888 2554 2273 2555 63
 1886 2555 2272 2556 64
 1890 2556 2276 2556 63
 1887 2557 2274 2557 64
 2274 1686 1886 1685 63
 2273 1572 1888 1570 63
 2271 1543 1888 1542 63
 2273 1539 1888 1538 63
 2271 1539 1889 1538 64
 2270 1539 1886 1539 64
 2273 1539 1890 1539 63
 2272 1539 1887 1537 64
 2273 1539 1888 1539 63
 2271 1539 1889 1537 64
 2272 1539 1887 1537 63
 2272 1539 1890 1538 63
 2270 1539 1887 1537 64
 2271 1538 1887 1538 63
 2271 1539 1888 1538 63
 2272 1539 1888 1537 63
 1887 2474 2276 2473 64
 1887 2569 2273 2569 63
 1890 2563 2274 2563 63
 1887 2558 2272 2557 64
 1888 2555 2274 2555 63
 1887 2554 2275 2556 63
 1885 2555 2272 2554 63
 1889 2556 2275 2555 63
 1887 2555 2273 2555 64
 1890 2556 2275 2557 63
 1888 2556 2274 2556 63
 1889 2555 2273 2555 63
 1889 2556 2275 2555 63
 1887 2554 2273 2554 63
 1888 2555 2273 2555 63
 1888 2555 2273 2555 64
 1889 2556 2274 2557 63
 2271 1514 1890 1511 63
 2270 1549 1886 1547 63
 2273 1538 1890 1537 63
 2270 1539 1888 1538 63
 2271 1539 1889 1537 63
 2270 1539 1888 1537 63
 2271 1539 1887 1537 63
 2271 1539 1888 1537 63
 2273 1540 1890 1538 63
 2271 1539 1890 1537 63
 2272 1539 1888 1537 63
 2272 1539 1889 1538 63
 2270 1540 1888 1538 63
 2273 1539 1889 1537 63
 2269 1539 1888 1537 64
 2271 1538 1888 1536 63
 2080 2017 2084 2017 63
 2080 2050 2080 2049 63
 2083 2048 2083 2047 63
 2080 2048 2081 2047 64
 2082 2047 2082 2046 63
 2080 2047 2083 2047 63
 2078 2047 2080 2047 63
 2081 2047 2083 2046 63
 2078 2046 2082 2045 64
 2082 2048 2083 2047 63
 2080 2048 2082 2047 64
 2080 2048 2081 2046 63
 2081 2048 2083 2046 63
 2080 2047 2081 2047 64
 2082 2047 2083 2048 63
 2080 2048 2082 2047 64
 2080 2048 2081 2047 63
 2078 2048 2080 2047 64
 2078 2048 2080 2046 63
 2081 2047 2081 2046 63
 2077 2047 2079 2046 64
 2080 2047 2082 2046 63
 2081 2047 2082 2046 64
 2079 2047 2080 2046 63
 2081 2046 2083 2046 63
 2080 2048 2081 2046 63
 2081 2047 2083 2046 63
 2080 2048 2082 2046 63
 2081 2048 2082 2047 63
 2081 2047 2083 2046 63
 2079 2046 2081 2045 63
 2080 2048 2082 2046 63
 2079 2047 2082 2047 63
 2081 2048 2082 2045 63
 2080 2048 2084 2048 63
 2080 2047 2081 2047 63
 2082 2048 2084 2047 63
 2079 2047 2082 2047 63
 2081 2047 2083 2046 63
 2080 2047 2082 2046 63
 2080 2046 2080 2047 63
 2078 2048 2080 2046 63
 2076 2047 2077 2046 63
 2081 2048 2083 2046 63
 2079 2048 2081 2048 64
 2081 2047 2082 2046 63
 2079 2046 2081 2047 64
 2080 2048 2081 2046 63
 2078 2046 2080 2046 63
 2079 2047 2080 2046 63
 2081 2048 2083 2047 63
 2079 2047 2081 2046 64
 2082 2048 2081 2046 63
 2081 2048 2082 2047 63
 2079 2047 2081 2047 63
 2079 2047 2079 2047 63
 2077 2047 2079 2047 64
 2082 2047 2082 2046 63
 2079 2048 2081 2046 64
 2080 2048 2081 2046 63
 2080 2048 2084 2046 63
 2080 2048 2080 2047 64
 2081 2047 2082 2047 63
 2079 2047 2080 2046 64
 2080 2048 2081 2047 63
 2075 2047 2077 2047 64
 2080 2047 2080 2047 63
 2081 2048 2082 2046 63
 2079 2048 2082 2046 63
 2080 2047 2083 2047 63
 2081 2048 2082 2048 63
 2080 2047 2080 2046 63
 2081 2047 2082 2046 63
 2077 2047 2079 2046 64
 2081 2048 2083 2047 63
 2079 2047 2083 2046 63
 2080 2047 2081 2047 63
 2081 2048 2083 2047 63
 2080 2048 2080 2046 63
 2081 2047 2082 2046 63
 2079 2047 2081 2046 63
 2078 2047 2078 2047 63
 2080 2047 2083 2045 63
 2080 2048 2080 2046 64
 2081 2048 2082 2046 63
 2079 2047 2080 2047 63
 2081 2048 2082 2046 63
 2081 2047 2082 2046 64
 2080 2048 2080 2047 63
 2081 2047 2083 2045 63
 2078 2047 2080 2047 64
 2081 2047 2083 2047 63
 2080 2048 2082 2048 64
 2081 2048 2082 2048 63
 2081 2048 2083 2047 63
 2079 2048 2081 2047 63
 2081 2047 2083 2046 63
 2080 2048 2081 2046 64
 2079 2047 2081 2045 63
 2081 2046 2082 2045 63
 2080 2048 2081 2046 63
 2081 2048 2084 2047 63
 2080 2047 2081 2047 64
 2081 2048 2082 2047 63
 2081 2047 2082 2046 63
 2081 2047 2081 2047 63
 2080 2047 2080 2046 63
 2079 2048 2081 2046 63
 2082 2048 2083 2046 63
 2080 2048 2081 2047 63
 2081 2049 2081 2047 63
 2081 2047 2083 2047 63
 2080 2048 2080 2046 63
 2082 2047 2083 2047 63
 2079 2047 2081 2046 64
 2079 2048 2082 2045 63
 2082 2047 2082 2046 63
 2081 2048 2081 2047 63
 2081 2048 2084 2048 63
 2080 2048 2081 2047 64
 2081 2047 2083 2047 63
 2080 2049 2082 2046 64
 2081 2046 2081 2046 63
 2080 2047 2081 2046 63
 2080 2048 2081 2046 63
 2082 2048 2083 2047 63
 2080 2048 2082 2047 63
 2079 2048 2081 2047 63
 2081 2047 2083 2048 63
 2080 2047 2083 2047 63
 2080 2047 2082 2046 63
 2080 2046 2081 2046 64
 2080 2046 2081 2046 63
 2082 2047 2083 2046 63
 2080 2048 2082 2046 63
 2081 2048 2082 2046 63
 2080 2047 2083 2046 64